time, acel_x,acel_y,acel_z,gyro_x, gyro_y, gyro_z,mag_x, mag_y, mag_z,Pressure
aurrera
79025, 0.24, -0.15, 0.95, 1.71, -1.22, -0.18, 48.68, 35.51, -40.41, 101.46
79151, 0.24, -0.15, 0.97, 2.81, -0.98, -0.24, 47.90, 35.86, -41.37, 101.44
79278, 0.26, -0.13, 0.94, 1.59, -1.89, 0.06, 48.50, 35.93, -41.81, 101.46
79405, 0.62, -0.25, 0.90, -0.55, -4.39, -5.31, 48.43, 35.78, -40.31, 101.45
79533, 0.34, -0.13, 0.82, -1.83, 1.59, 4.09, 47.84, 36.38, -41.74, 101.46
79659, 0.17, -0.01, 0.77, -9.52, 1.16, 6.35, 47.46, 36.80, -41.43, 101.46
79786, 0.33, -0.04, 0.94, 0.12, -1.40, 5.31, 46.37, 38.04, -40.52, 101.46
79913, 0.30, -0.01, 0.99, -1.46, 1.10, 3.11, 45.62, 38.10, -39.88, 101.46
80040, 0.37, -0.32, 1.02, 9.95, 1.89, -3.48, 43.80, 38.33, -39.26, 101.46
80167, 0.40, -0.22, 1.03, 12.27, -5.43, -4.52, 43.05, 38.83, -41.02, 101.45
80294, 0.33, -0.35, 1.07, 16.85, -5.00, -1.71, 40.77, 38.07, -40.91, 101.45
80421, 0.33, 0.00, 0.94, -8.73, -0.98, 7.51, 39.54, 37.04, -41.75, 101.46
80547, 0.23, -0.03, 0.97, -4.46, 0.37, 4.46, 39.10, 34.63, -43.24, 101.46
80674, 0.29, -0.11, 0.95, 1.34, -5.55, 2.81, 39.20, 33.91, -43.68, 101.46
80801, 0.34, -0.12, 1.18, 2.32, -4.15, -3.17, 39.51, 32.17, -43.18, 101.46
80928, 0.35, -0.29, 1.00, 17.15, -12.21, -6.29, 39.66, 30.55, -44.48, 101.46
81054, 0.31, -0.01, 0.81, 0.98, -3.54, -3.97, 39.90, 29.64, -45.74, 101.46
81180, 0.28, -0.06, 0.79, -6.16, 1.22, -2.44, 40.03, 28.26, -45.94, 101.45
81306, 0.39, -0.15, 1.00, 5.86, -2.81, -3.05, 39.95, 26.99, -45.51, 101.44
81431, 0.31, -0.39, 0.94, 4.09, 2.75, -5.74, 40.81, 26.34, -46.17, 101.46
81557, 0.27, 0.15, 0.83, -0.61, -1.22, 0.43, 40.48, 26.43, -46.19, 101.45
81683, 0.22, 0.00, 1.05, 7.81, -4.15, -3.23, 41.15, 25.35, -45.30, 101.46
81809, 0.14, 0.04, 0.96, -1.22, -2.56, -0.37, 41.91, 24.96, -46.69, 101.46
81935, 0.45, -0.40, 0.90, -10.62, 1.65, 2.08, 41.85, 23.85, -46.42, 101.46
82061, 0.20, -0.20, 0.86, 0.18, 4.88, -2.32, 42.26, 23.51, -47.12, 101.46
82187, 0.22, 0.07, 1.06, -4.88, -4.21, -7.32, 42.48, 23.78, -46.28, 101.46
82187, 0.22, 0.07, 1.06, -4.88, -4.21, -7.32, 42.48, 23.78, -46.28, 101.46
82313, 0.07, -0.05, 0.80, -4.33, 8.06, -2.38, 42.18, 23.41, -45.75, 101.45
82439, 0.22, -0.39, 1.04, 4.76, -3.72, -8.61, 42.55, 23.57, -48.01, 101.46
82566, 0.19, -0.11, 0.82, -12.02, 6.84, 4.52, 42.40, 23.69, -47.20, 101.46
82692, 0.14, 0.07, 0.92, -1.16, -4.70, 3.05, 42.93, 23.77, -45.90, 101.46
82819, 0.22, -0.19, 1.12, 1.83, -7.39, -2.32, 43.16, 23.56, -46.15, 101.46
82946, 0.33, 0.05, 1.00, -7.51, -2.81, 1.77, 42.68, 22.89, -45.52, 101.45
83073, 0.17, -0.27, 0.82, -0.73, -1.34, -0.12, 43.21, 22.97, -44.79, 101.46
83201, 0.27, 0.07, 1.02, 6.71, -9.89, -8.79, 43.30, 22.85, -45.24, 101.44
83327, 0.09, 0.19, 1.02, -6.41, 2.99, -8.54, 42.87, 23.24, -43.26, 101.46
83455, 0.21, -0.12, 1.05, 2.14, -11.78, -5.25, 43.02, 23.39, -43.19, 101.46
83582, 0.26, -0.12, 0.77, -8.42, 5.00, 7.69, 42.94, 23.78, -42.71, 101.46
83709, 0.25, -0.01, 0.92, 8.12, -7.39, 4.33, 42.63, 23.61, -43.01, 101.45
83837, 0.16, -0.25, 0.86, 12.33, -4.46, 5.62, 42.63, 23.71, -42.60, 101.46
83963, 0.17, -0.07, 0.90, 8.24, -10.25, 9.95, 42.72, 23.38, -40.87, 101.46
84089, 0.17, 0.10, 0.90, 16.36, -11.90, 8.73, 43.23, 22.99, -41.65, 101.46
eskuinera
93394, 0.26, -0.13, 0.93, 6.47, -2.14, -1.53, 46.48, 22.52, -39.10, 101.45
93521, 0.23, -0.11, 0.99, 1.40, -1.59, -0.18, 46.11, 22.63, -39.05, 101.46
93648, 0.24, -0.13, 0.96, 2.26, -0.37, 0.00, 45.75, 22.96, -38.93, 101.46
93775, 0.24, -0.13, 0.95, 1.46, -1.53, 0.18, 45.96, 22.69, -39.88, 101.46
93902, 0.22, -0.13, 0.98, 1.46, -0.85, 0.00, 45.94, 22.79, -39.43, 101.46
94028, 0.30, -0.08, 0.97, 0.49, 0.00, -8.36, 45.95, 23.05, -39.67, 101.46
94155, 0.38, 0.09, 0.91, -10.99, 4.27, -36.80, 44.52, 22.67, -40.31, 101.46
94282, 0.40, 0.01, 1.04, -9.03, 3.54, -73.91, 41.83, 25.40, -41.37, 101.47
94408, 0.25, -0.21, 1.16, -3.60, -0.24, -79.22, 38.43, 24.99, -41.94, 101.46
94535, 0.23, -0.13, 0.81, -16.78, 2.62, -58.59, 35.61, 25.43, -43.41, 101.47
94661, 0.22, -0.05, 0.82, -16.97, 7.87, -47.12, 32.35, 25.17, -45.41, 101.47
94789, 0.23, -0.27, 1.11, 1.16, -3.54, -51.51, 30.65, 23.84, -46.01, 101.46
94916, 0.22, -0.04, 0.81, -17.33, 8.91, -38.57, 28.94, 22.62, -48.10, 101.46
95042, 0.31, -0.08, 0.90, -9.95, 6.65, -36.80, 26.97, 21.12, -48.60, 101.45
95169, 0.34, 0.01, 0.89, -18.19, 7.02, -34.30, 25.67, 19.25, -48.16, 101.46
95297, 0.31, 0.09, 0.76, -21.30, 7.69, -32.41, 24.94, 18.40, -50.00, 101.45
95424, 0.27, -0.08, 0.88, -8.79, 7.63, -38.64, 23.84, 16.49, -49.65, 101.46
95551, 0.12, -0.05, 0.89, -12.33, 4.76, -26.00, 23.10, 15.38, -49.77, 101.45
95677, 0.29, -0.31, 0.98, 5.07, 0.92, -20.51, 22.38, 14.47, -49.84, 101.46
95803, 0.34, -0.20, 0.97, 4.21, -0.85, -9.77, 21.75, 12.59, -49.72, 101.46
95931, 0.28, -0.12, 0.98, -1.53, -2.38, -5.55, 21.89, 12.68, -50.78, 101.46
96058, 0.18, -0.10, 0.81, -3.36, 5.68, -0.98, 21.84, 11.76, -50.06, 101.46
96185, 0.24, -0.14, 0.98, 2.75, 0.43, -3.54, 22.03, 11.47, -50.38, 101.46
96313, 0.25, -0.25, 1.13, -4.94, 2.01, -0.98, 21.87, 11.25, -50.45, 101.47
96440, 0.28, 0.11, 0.99, 9.34, -5.62, -6.23, 21.55, 10.89, -50.39, 101.46
96567, 0.15, -0.06, 1.10, 4.52, 1.34, -4.09, 21.84, 10.77, -50.52, 101.47
96693, 0.26, -0.24, 1.04, -2.26, 2.75, -3.42, 21.87, 9.74, -49.26, 101.46
96820, 0.36, -0.23, 0.86, -4.27, -2.81, 0.92, 21.58, 9.79, -51.42, 101.46
96946, 0.24, -0.03, 0.95, -3.36, -4.82, 2.01, 21.97, 9.35, -50.37, 101.46
97072, 0.18, -0.25, 0.96, 8.24, -5.43, 0.18, 21.80, 9.33, -50.83, 101.46
97198, 0.22, -0.21, 0.98, -1.59, -0.49, -0.55, 21.80, 9.18, -50.24, 101.46
97324, 0.34, 0.09, 1.05, -2.69, -4.21, 0.98, 22.38, 8.35, -49.32, 101.46
97450, 0.23, -0.06, 1.02, 7.08, -7.57, -2.69, 22.83, 8.98, -49.99, 101.45
97576, 0.30, -0.09, 0.98, 9.09, -8.00, -4.64, 22.71, 8.04, -51.18, 101.46
97701, 0.27, 0.10, 1.01, 3.42, -10.31, -2.93, 23.21, 8.48, -50.81, 101.46
97827, 0.34, -0.03, 1.04, -1.71, -6.47, -2.01, 23.86, 7.08, -50.38, 101.46
97953, 0.23, -0.16, 0.97, -1.34, 0.00, 1.34, 24.00, 7.06, -52.01, 101.46
98079, 0.20, -0.28, 0.84, 3.72, -8.97, 2.14, 24.17, 6.81, -50.73, 101.46
98205, 0.19, -0.27, 0.81, 7.20, -5.07, 2.38, 24.13, 7.23, -50.51, 101.46
98330, 0.31, 0.09, 1.07, -6.23, -1.34, -10.50, 24.96, 6.73, -51.33, 101.46
98456, 0.26, -0.50, 0.93, 17.33, -6.10, -6.41, 24.84, 6.12, -50.67, 101.46
atzera
109558, 0.23, -0.11, 0.97, 1.34, -1.22, 0.06, 22.25, 7.30, -52.39, 101.45
109684, 0.23, -0.13, 0.97, 1.53, -2.56, 0.06, 22.07, 6.60, -52.94, 101.46
109810, 0.22, -0.16, 0.98, 2.20, -1.65, -0.24, 21.89, 7.47, -52.40, 101.45
109937, 0.17, -0.11, 0.98, 0.61, -0.55, 0.92, 22.20, 7.15, -51.76, 101.46
110063, 0.16, -0.12, 0.92, -0.31, -0.67, 0.61, 22.20, 7.71, -53.02, 101.45
110190, 0.17, -0.22, 0.99, 3.05, -1.22, -2.87, 22.31, 6.99, -53.32, 101.45
110317, 0.15, -0.05, 0.84, -8.00, 7.02, 6.71, 22.11, 6.38, -51.97, 101.44
110444, 0.21, -0.11, 0.77, -5.19, 6.96, 5.19, 22.57, 6.76, -52.98, 101.45
110570, 0.21, -0.18, 1.05, 9.70, -10.25, -0.12, 22.03, 7.68, -52.48, 101.44
110696, 0.20, -0.14, 1.16, 9.22, -6.53, -0.61, 22.29, 6.96, -52.72, 101.46
110823, 0.15, -0.19, 0.87, 2.32, -3.72, 1.28, 22.42, 6.98, -53.19, 101.45
110950, 0.16, -0.09, 0.82, -5.07, 5.49, 3.11, 22.80, 6.87, -53.04, 101.45
111077, 0.22, -0.39, 0.79, 5.92, 2.32, -2.32, 22.58, 6.60, -52.40, 101.45
111203, 0.26, -0.09, 0.92, -1.65, 3.23, -0.31, 23.08, 5.99, -50.88, 101.45
111329, 0.22, -0.28, 0.98, 1.22, -5.37, 3.11, 23.58, 5.90, -51.94, 101.46
111456, 0.25, -0.08, 1.01, 5.62, -1.40, 7.02, 23.78, 6.08, -50.33, 101.45
111582, 0.24, -0.14, 1.03, 5.92, -2.44, 9.70, 24.23, 6.62, -52.61, 101.45
111708, 0.24, 0.18, 1.11, -6.84, -5.62, 11.29, 25.24, 6.70, -51.46, 101.45
111835, 0.27, -0.23, 0.97, 8.30, -7.32, 1.77, 25.05, 6.60, -51.84, 101.45
111961, 0.30, -0.08, 1.03, -0.73, -1.04, 1.22, 24.83, 6.76, -51.54, 101.46
112088, 0.32, -0.07, 0.97, 0.67, -2.69, -4.82, 25.45, 7.02, -51.14, 101.46
112214, 0.28, -0.26, 0.97, 3.30, -1.65, -8.97, 25.23, 7.06, -50.79, 101.44
112341, 0.15, -0.36, 0.92, 2.14, 1.40, -8.67, 25.76, 7.01, -52.14, 101.46
112468, 0.21, -0.15, 0.93, -1.83, 1.16, -7.75, 25.37, 6.74, -51.72, 101.44
112595, 0.20, -0.04, 1.09, -0.73, -6.47, -6.65, 25.79, 6.51, -51.40, 101.45
112723, 0.11, -0.01, 0.88, -3.54, 0.67, -0.06, 25.76, 6.43, -51.76, 101.44
112850, 0.28, -0.05, 0.76, -1.10, 6.53, 4.70, 25.46, 6.60, -51.40, 101.45
112976, 0.25, -0.07, 0.96, -1.83, -4.46, 1.83, 24.96, 6.70, -50.93, 101.44
113102, 0.28, -0.14, 0.91, 1.77, -0.85, 11.90, 25.33, 7.13, -51.10, 101.46
113228, 0.25, -0.07, 1.00, -2.87, -1.65, 11.11, 25.35, 7.92, -52.70, 101.45
113355, 0.18, -0.14, 0.94, 6.23, -4.09, 10.86, 24.95, 8.53, -51.67, 101.45
113481, 0.42, -0.13, 0.91, 9.03, -4.52, 7.63, 25.34, 9.59, -51.73, 101.45
113606, 0.27, -0.16, 0.93, 0.43, 2.01, 0.12, 25.55, 10.11, -51.06, 101.46
113732, 0.28, -0.31, 0.91, 1.83, -2.08, -6.47, 25.34, 9.95, -51.33, 101.46
113858, 0.15, -0.27, 0.87, -1.65, -1.83, -8.54, 24.65, 9.91, -51.56, 101.45
113984, 0.26, -0.27, 0.86, -1.71, -0.85, -9.22, 24.84, 10.16, -51.76, 101.45
114110, 0.28, -0.32, 0.99, -6.65, 0.31, -7.75, 24.17, 9.72, -49.85, 101.44
114236, 0.19, -0.22, 0.81, -0.43, 1.83, -9.40, 24.22, 8.84, -51.20, 101.45
114362, 0.29, -0.17, 1.05, 4.94, -6.84, -8.61, 23.69, 8.70, -50.56, 101.44
114488, 0.19, -0.22, 1.00, 1.71, -2.81, -0.31, 23.30, 8.09, -50.87, 101.46
114616, 0.36, -0.33, 0.87, 9.40, -5.49, 8.36, 23.12, 8.20, -50.57, 101.44
aurrera
124506, 0.25, -0.12, 0.94, 2.14, -0.85, -0.37, 22.29, 11.25, -49.50, 101.44
124632, 0.24, -0.17, 1.00, 0.00, -0.24, 0.37, 22.19, 11.65, -50.63, 101.44
124759, 0.26, -0.14, 0.97, 2.44, -2.32, -0.37, 22.12, 11.10, -50.40, 101.45
124885, 0.34, -0.10, 0.91, 1.95, -3.23, -0.49, 21.87, 11.65, -50.77, 101.45
125011, 0.52, -0.04, 0.86, 5.55, -6.90, 5.43, 21.68, 11.49, -49.85, 101.45
125137, 0.32, -0.16, 1.04, 1.59, -3.30, -0.49, 22.00, 11.30, -50.24, 101.46
125263, 0.43, 0.18, 0.90, 8.79, 2.01, 1.65, 22.08, 11.46, -49.83, 101.45
125389, 0.47, -0.25, 0.76, 7.39, -7.32, 12.02, 21.87, 11.40, -50.54, 101.45
125516, 0.53, -0.21, 0.93, 4.64, -2.50, 14.59, 22.13, 11.33, -49.90, 101.45
125642, 0.40, -0.35, 0.83, 6.10, -5.19, 18.92, 23.05, 10.99, -50.11, 101.44
125768, 0.47, -0.17, 1.13, 10.68, -3.72, 2.44, 22.62, 11.94, -49.63, 101.45
125895, 0.35, -0.09, 1.06, 2.44, -6.35, -7.93, 23.44, 11.39, -49.17, 101.43
126022, 0.26, 0.12, 0.81, -16.72, 7.69, -4.33, 24.02, 11.04, -50.04, 101.45
126149, 0.23, -0.29, 0.83, -17.52, 11.47, -0.92, 23.77, 9.92, -50.73, 101.43
126275, 0.34, -0.40, 1.17, 9.64, -10.19, -10.80, 24.06, 9.75, -51.27, 101.45
126401, 0.36, -0.16, 1.17, 0.31, -7.32, -7.26, 24.50, 8.73, -52.28, 101.45
126527, 0.43, -0.15, 1.16, 2.08, 3.48, -9.40, 24.49, 7.63, -51.84, 101.45
126653, 0.39, -0.35, 0.75, -8.42, 18.31, -12.15, 24.93, 7.36, -52.17, 101.44
126779, 0.14, -0.00, 0.74, -20.94, 11.47, -8.67, 24.30, 6.71, -51.70, 101.45
126906, 0.25, -0.32, 0.93, 1.22, -5.49, -11.54, 24.21, 5.94, -51.76, 101.45
127033, 0.19, -0.25, 0.75, -7.51, 3.17, 0.43, 24.51, 5.41, -52.06, 101.45
127159, 0.38, 0.21, 1.14, -1.89, -7.26, -1.65, 23.77, 6.12, -52.43, 101.44
127285, 0.32, -0.38, 0.88, 7.39, 0.06, -10.38, 23.13, 6.73, -51.49, 101.44
127411, 0.10, -0.10, 1.05, 0.67, -2.38, -5.55, 22.24, 6.70, -52.09, 101.45
127538, 0.02, -0.02, 0.96, -7.63, 5.25, 7.75, 22.51, 7.35, -50.88, 101.44
127664, 0.14, -0.03, 1.22, 2.81, -8.67, 6.23, 22.99, 7.60, -52.45, 101.45
127790, 0.26, -0.11, 1.12, 1.65, -5.43, 2.87, 22.44, 8.51, -51.17, 101.43
127916, -0.07, 0.11, 0.75, 15.63, -17.46, -1.22, 22.29, 8.61, -51.61, 101.44
128042, 0.13, -0.07, 0.95, -2.38, -1.77, 10.68, 22.02, 8.63, -51.49, 101.45
128168, 0.09, -0.26, 1.04, -3.17, 2.81, 11.78, 22.90, 8.95, -51.04, 101.45
128294, 0.12, -0.28, 0.91, -8.24, 2.93, 17.03, 22.51, 9.38, -50.94, 101.45
128421, 0.06, 0.21, 1.20, 15.99, -0.67, 3.30, 22.91, 8.70, -50.62, 101.45
128548, 0.23, -0.34, 0.92, 1.77, -0.92, 10.38, 23.58, 8.67, -50.49, 101.45
128675, 0.01, -0.11, 1.05, 8.12, -10.99, 6.59, 22.94, 8.90, -49.13, 101.45
128802, 0.08, 0.10, 1.02, 15.56, -7.57, -1.71, 22.72, 8.67, -48.90, 101.45
128929, 0.04, 0.06, 0.67, -10.19, 1.46, 6.53, 22.61, 8.68, -48.60, 101.44
129055, 0.10, -0.13, 0.92, -5.07, 2.69, 1.04, 22.57, 8.64, -48.65, 101.45
129180, 0.07, -0.04, 0.98, 8.67, -7.45, -3.17, 21.53, 7.53, -48.58, 101.44
129306, 0.16, -0.22, 1.00, 4.33, -2.20, -1.77, 21.42, 7.37, -48.91, 101.45
129431, 0.21, -0.13, 0.91, 2.14, -2.14, -0.61, 21.28, 8.03, -48.45, 101.43
129557, 0.17, -0.14, 0.96, 1.04, -1.34, 0.12, 21.58, 7.95, -48.02, 101.45
eskuinera
139467, 0.22, -0.16, 0.95, 2.01, -1.22, 0.00, 21.72, 7.92, -47.62, 101.45
139593, 0.23, -0.14, 0.97, 1.65, -2.81, 0.12, 21.57, 7.81, -47.95, 101.44
139720, 0.23, -0.14, 0.95, 1.53, -1.83, 0.12, 21.45, 8.72, -48.03, 101.44
139847, 0.22, -0.13, 0.96, 0.98, -1.59, 0.12, 21.63, 7.81, -48.29, 101.44
139974, 0.22, -0.16, 0.94, 2.56, -1.28, -0.73, 21.98, 8.30, -47.85, 101.44
140100, 0.39, 0.04, 0.78, -9.46, 11.66, -12.82, 21.96, 8.17, -47.49, 101.44
140226, 0.41, 0.11, 1.07, -7.75, 0.49, -54.26, 21.75, 6.31, -48.33, 101.44
140353, 0.30, 0.18, 0.80, -30.76, 19.23, -78.55, 20.80, 2.98, -46.73, 101.43
140479, 0.26, -0.03, 0.97, -22.16, 10.50, -90.76, 22.49, -2.98, -45.39, 101.44
140605, 0.20, -0.05, 0.83, -25.02, 8.30, -80.02, 23.65, -6.35, -45.53, 101.43
140731, 0.04, 0.10, 0.82, -18.13, 4.70, -75.20, 26.68, -10.00, -43.87, 101.44
140858, 0.08, 0.02, 0.79, -5.98, -0.98, -61.28, 29.64, -10.94, -42.11, 101.44
140985, 0.25, -0.19, 1.21, -8.97, 3.72, -34.79, 33.15, -12.10, -40.14, 101.44
141112, 0.22, 0.10, 0.85, 1.34, -1.83, -28.99, 34.75, -11.08, -41.04, 101.44
141239, 0.28, -0.21, 1.03, -0.55, 2.14, -23.56, 35.63, -10.23, -38.13, 101.44
141365, 0.38, -0.05, 0.84, -7.75, 4.52, -17.03, 37.89, -8.45, -37.00, 101.44
141492, 0.35, -0.09, 1.03, -2.01, 0.24, -21.61, 39.95, -5.24, -35.01, 101.44
141619, 0.25, -0.05, 0.87, -6.96, 2.93, -15.32, 41.28, -2.58, -33.80, 101.44
141745, 0.33, -0.24, 0.96, -7.08, -0.98, -12.70, 40.17, 5.26, -30.49, 101.44
141872, 0.22, -0.32, 0.99, -2.08, -2.20, -8.12, 36.34, 10.30, -30.48, 101.44
141999, 0.24, -0.21, 0.73, -0.55, 1.16, 1.22, 30.03, 14.61, -30.49, 101.44
142126, 0.33, 0.24, 0.85, -13.85, 0.67, 7.87, 20.83, 12.96, -33.63, 101.45
142252, 0.20, -0.38, 1.24, 6.84, -6.23, -1.71, 16.97, 8.48, -36.46, 101.44
142379, 0.13, 0.00, 0.69, -11.54, 0.49, 6.59, 15.81, 0.27, -41.99, 101.44
142505, 0.26, -0.06, 1.09, 9.83, -11.35, -2.14, 17.04, -4.24, -45.30, 101.44
142632, 0.19, -0.18, 0.89, -2.20, 3.36, 2.69, 20.00, -9.31, -47.55, 101.44
142759, 0.29, -0.25, 0.94, -2.87, -4.21, 0.61, 21.24, -10.73, -49.13, 101.43
142886, 0.31, -0.01, 0.88, -0.31, -1.04, 3.60, 23.90, -13.23, -50.06, 101.44
143012, 0.32, -0.10, 1.29, 7.81, -11.54, -4.58, 24.46, -14.23, -51.28, 101.43
143139, 0.27, 0.04, 0.80, -11.29, 0.85, 2.26, 26.22, -15.80, -51.34, 101.44
143266, 0.38, -0.10, 0.86, -9.03, 5.86, 1.59, 28.25, -16.83, -53.10, 101.44
143394, 0.44, -0.24, 0.85, -1.40, 5.00, -7.75, 29.86, -16.94, -53.34, 101.44
143522, 0.30, 0.24, 0.60, -25.02, 5.19, -0.85, 31.18, -17.18, -53.33, 101.44
143648, 0.29, -0.12, 1.05, 2.87, -6.53, -5.43, 32.73, -18.26, -54.93, 101.44
143775, 0.29, -0.25, 0.89, 5.92, -0.85, -7.93, 33.53, -18.46, -53.38, 101.44
143901, 0.45, -0.33, 1.03, 1.89, -0.06, -12.21, 35.14, -19.30, -52.56, 101.44
144028, 0.28, -0.40, 1.20, 13.85, -5.43, -18.86, 36.00, -18.62, -53.70, 101.44
144156, 0.25, 0.04, 0.88, -10.31, -2.56, 2.56, 36.49, -18.86, -53.09, 101.44
144282, 0.49, -0.16, 0.99, 13.67, -1.40, 12.51, 35.90, -18.76, -52.98, 101.44
144408, 0.25, -0.03, 1.24, 18.86, -8.30, -1.34, 35.47, -17.77, -52.64, 101.44
144534, 0.23, -0.04, 1.22, 1.40, -2.20, -31.37, 35.51, -17.68, -52.27, 101.44
aurrera
160791, 0.22, -0.13, 0.96, 1.34, -1.40, 0.12, 26.71, -10.30, -49.00, 101.46
160918, 0.33, -0.11, 0.94, 1.46, -1.59, 1.89, 27.06, -10.52, -49.85, 101.45
161044, 0.53, -0.12, 0.94, -1.53, -0.18, -3.36, 27.16, -10.34, -49.07, 101.45
161171, 0.48, -0.34, 1.02, -10.25, 7.75, -1.83, 27.03, -10.82, -50.06, 101.45
161297, 0.36, -0.11, 0.75, -5.19, 2.14, 1.83, 26.68, -10.39, -49.00, 101.45
161424, 0.14, -0.18, 0.95, -5.49, 2.69, 3.36, 27.48, -10.40, -48.68, 101.46
161550, 0.42, -0.26, 0.93, 12.70, -0.73, 2.38, 26.49, -10.34, -48.94, 101.46
161676, 0.27, 0.03, 0.84, 18.31, -8.85, 10.80, 26.00, -10.00, -48.99, 101.44
161802, 0.20, 0.01, 0.87, -7.63, -2.87, 16.85, 25.68, -9.81, -48.75, 101.45
161927, 0.25, -0.25, 0.89, 17.52, -6.65, 8.24, 24.82, -8.92, -49.15, 101.45
162053, 0.24, 0.14, 0.91, -5.55, -0.12, -0.73, 25.60, -8.67, -48.39, 101.45
162180, 0.27, -0.05, 0.94, -0.55, -0.43, -18.07, 25.42, -8.98, -48.41, 101.45
162306, 0.19, 0.09, 0.78, -20.20, 8.06, -11.47, 26.76, -9.46, -48.11, 101.45
162432, 0.20, -0.29, 1.05, 5.80, -7.26, -27.65, 27.06, -10.10, -47.88, 101.45
162558, 0.25, 0.13, 0.95, -6.10, 6.77, -10.62, 27.36, -10.55, -47.14, 101.46
162685, 0.28, -0.13, 1.03, -4.82, 1.28, -13.24, 29.06, -10.78, -47.19, 101.45
162811, 0.33, -0.33, 0.91, 4.33, -4.27, -16.66, 29.28, -10.99, -47.88, 101.45
162937, 0.19, -0.17, 1.00, 4.15, -5.31, -10.99, 29.71, -11.73, -47.75, 101.45
163063, 0.33, -0.08, 0.85, -6.53, 0.67, -4.03, 29.91, -10.75, -47.94, 101.45
163190, 0.24, -0.22, 1.01, 1.53, 1.95, -7.81, 30.20, -10.51, -48.57, 101.45
163316, 0.25, -0.20, 1.08, 0.61, -1.28, -9.95, 31.07, -10.86, -47.81, 101.43
163442, 0.21, -0.09, 0.88, 1.34, -3.48, -6.59, 30.76, -11.02, -47.86, 101.45
163569, 0.22, -0.17, 0.88, -2.44, 0.37, -3.66, 30.69, -11.36, -46.40, 101.44
163695, 0.19, -0.10, 1.10, 4.64, 2.08, -1.34, 30.65, -11.80, -47.25, 101.45
163821, 0.39, -0.33, 1.01, -0.92, -0.43, 0.31, 31.18, -11.68, -48.08, 101.45
163948, 0.38, 0.01, 0.93, 16.60, -8.73, -1.71, 31.13, -12.29, -48.13, 101.45
164075, 0.35, 0.07, 0.94, 16.17, -8.36, 1.16, 30.44, -13.09, -49.79, 101.45
164201, 0.04, -0.09, 0.74, 7.20, -6.41, 8.85, 30.94, -13.15, -50.16, 101.45
164327, 0.11, -0.02, 0.81, 4.82, -3.60, -0.98, 31.19, -13.34, -49.62, 101.45
164453, 0.14, -0.12, 0.82, 6.41, -3.66, -3.54, 31.80, -13.65, -50.71, 101.45
164579, 0.15, 0.03, 1.11, -3.36, -3.30, -2.20, 32.37, -14.23, -51.27, 101.45
164706, 0.22, 0.01, 0.83, -9.28, -13.12, -3.23, 32.20, -13.90, -50.24, 101.45
164832, 0.17, -0.16, 0.87, 2.38, -0.92, 5.07, 32.71, -14.51, -49.35, 101.45
164959, 0.09, -0.27, 0.96, 6.35, -8.91, 5.31, 32.04, -13.89, -50.67, 101.45
165092, 0.24, -0.14, 0.90, 1.22, -3.91, 12.76, 31.91, -14.40, -50.04, 101.45
165218, 0.22, 0.01, 0.87, 1.46, -1.59, 16.60, 31.43, -13.81, -49.32, 101.45
165346, 0.24, 0.03, 0.92, -0.79, 4.09, 9.77, 31.08, -13.51, -47.85, 101.45
165472, 0.12, -0.05, 0.80, -6.04, 10.44, 1.59, 30.40, -12.92, -48.67, 101.44
165599, 0.24, -0.14, 0.74, -3.17, 9.28, 2.08, 30.83, -11.56, -49.02, 101.45
165726, 0.26, -0.15, 1.18, 10.31, -13.92, -5.00, 30.16, -11.10, -49.60, 101.44
165852, 0.20, -0.04, 0.69, -8.42, 8.61, 6.04, 29.71, -11.21, -50.28, 101.45



